File: FWTPET of AA6061 with Ti-6Al-4V/XRD/900/sample 2.txt
20,2246.67
20.05,2633.33
20.1,2700
20.15,2333.33
20.2,2446.67
20.25,2520
20.3,2780
20.35,2500
20.4,2306.67
20.45,2546.67
20.5,2426.67
20.55,2406.67
20.6,2313.33
20.65,2480
20.7,2373.33
20.75,2346.67
20.8,2333.33
20.85,2600
20.9,2413.33
20.95,2453.33
21,2693.33
21.05,2646.67
21.1,2406.67
21.15,2206.67
21.2,2373.33
21.25,2700
21.3,2666.67
21.35,2760
21.4,2640
21.45,2920
21.5,4066.67
21.55,5486.67
21.6,6000
21.65,4540
21.7,3460
21.75,2846.67
21.8,2533.33
21.85,2493.33
21.9,2413.33
21.95,2633.33
22,2626.67
22.05,2433.33
22.1,2273.33
22.15,2220
22.2,2166.67
22.25,2406.67
22.3,2006.67
22.35,2093.33
22.4,2040
22.45,1946.67
22.5,2026.67
22.55,2300
22.6,2053.33
22.65,2106.67
22.7,2146.67
22.75,2033.33
22.8,1926.67
22.85,2066.67
22.9,1886.67
22.95,1946.67
23,2080
23.05,2073.33
23.1,2033.33
23.15,1913.33
23.2,1826.67
23.25,1886.67
23.3,1893.33
23.35,2066.67
23.4,2173.33
23.45,1826.67
23.5,1960
23.55,2066.67
23.6,1946.67
23.65,2093.33
23.7,1973.33
23.75,1953.33
23.8,2113.33
23.85,2246.67
23.9,2720
23.95,2946.67
24,2906.67
24.05,2300
24.1,2113.33
24.15,2026.67
24.2,1780
24.25,1726.67
24.3,1646.67
24.35,1753.33
24.4,1826.67
24.45,1820
24.5,1693.33
24.55,1693.33
24.6,1580
24.65,1626.67
24.7,1886.67
24.75,1566.67
24.8,1866.67
24.85,1560
24.9,1586.67
24.95,1660
25,1706.67
25.05,1780
25.1,1686.67
25.15,1600
25.2,1540
25.25,1566.67
25.3,1606.67
25.35,1460
25.4,1766.67
25.45,1313.33
25.5,1460
25.55,1520
25.6,1566.67
25.65,1586.67
25.7,1540
25.75,1473.33
25.8,1573.33
25.85,1420
25.9,1386.67
25.95,1433.33
26,1373.33
26.05,1360
26.1,1266.67
26.15,1246.67
26.2,1406.67
26.25,1546.67
26.3,1286.67
26.35,1326.67
26.4,1473.33
26.45,1426.67
26.5,1320
26.55,1420
26.6,1493.33
26.65,1566.67
26.7,1893.33
26.75,2486.67
26.8,2406.67
26.85,1993.33
26.9,1733.33
26.95,2513.33
27,3166.67
27.05,2533.33
27.1,1686.67
27.15,1393.33
27.2,1286.67
27.25,1326.67
27.3,1180
27.35,1160
27.4,1340
27.45,1226.67
27.5,1360
27.55,1286.67
27.6,1113.33
27.65,1293.33
27.7,1286.67
27.75,1286.67
27.8,1213.33
27.85,1326.67
27.9,1440
27.95,1393.33
28,1340
28.05,1346.67
28.1,1433.33
28.15,1393.33
28.2,1453.33
28.25,1313.33
28.3,973.333
28.35,1060
28.4,1173.33
28.45,1166.67
28.5,986.667
28.55,1106.67
28.6,1053.33
28.65,1133.33
28.7,1280
28.75,1173.33
28.8,1193.33
28.85,1080
28.9,1086.67
28.95,1053.33
29,1020
29.05,1060
29.1,1246.67
29.15,1026.67
29.2,940
29.25,1133.33
29.3,986.667
29.35,993.333
29.4,1160
29.45,1093.33
29.5,1133.33
29.55,1166.67
29.6,1166.67
29.65,1113.33
29.7,1046.67
29.75,1000
29.8,866.667
29.85,1086.67
29.9,973.333
29.95,1073.33
30,1033.33
30.05,960
30.1,986.667
30.15,1020
30.2,913.333
30.25,1100
30.3,920
30.35,933.333
30.4,786.667
30.45,913.333
30.5,926.667
30.55,793.333
30.6,1100
30.65,986.667
30.7,900
30.75,1100
30.8,813.333
30.85,906.667
30.9,780
30.95,993.333
31,786.667
31.05,766.667
31.1,800
31.15,746.667
31.2,786.667
31.25,813.333
31.3,800
31.35,800
31.4,786.667
31.45,906.667
31.5,833.333
31.55,886.667
31.6,826.667
31.65,793.333
31.7,800
31.75,746.667
31.8,846.667
31.85,833.333
31.9,886.667
31.95,886.667
32,826.667
32.05,846.667
32.1,900
32.15,826.667
32.2,873.333
32.25,886.667
32.3,800
32.35,713.333
32.4,800
32.45,860
32.5,806.667
32.55,793.333
32.6,720
32.65,680
32.7,866.667
32.75,753.333
32.8,666.667
32.85,660
32.9,773.333
32.95,720
33,720
33.05,740
33.1,826.667
33.15,726.667
33.2,786.667
33.25,920
33.3,880
33.35,746.667
33.4,780
33.45,626.667
33.5,746.667
33.55,726.667
33.6,766.667
33.65,753.333
33.7,620
33.75,780
33.8,686.667
33.85,666.667
33.9,666.667
33.95,773.333
34,780
34.05,720
34.1,873.333
34.15,746.667
34.2,673.333
34.25,700
34.3,706.667
34.35,633.333
34.4,746.667
34.45,766.667
34.5,786.667
34.55,706.667
34.6,733.333
34.65,733.333
34.7,833.333
34.75,780
34.8,820
34.85,726.667
34.9,793.333
34.95,860
35,786.667
35.05,706.667
35.1,820
35.15,766.667
35.2,753.333
35.25,880
35.3,926.667
35.35,986.667
35.4,1100
35.45,1066.67
35.5,980
35.55,880
35.6,960
35.65,786.667
35.7,760
35.75,800
35.8,966.667
35.85,700
35.9,846.667
35.95,853.333
36,740
36.05,846.667
36.1,946.667
36.15,1120
36.2,1320
36.25,1046.67
36.3,940
36.35,833.333
36.4,886.667
36.45,700
36.5,773.333
36.55,786.667
36.6,740
36.65,726.667
36.7,700
36.75,713.333
36.8,706.667
36.85,760
36.9,700
36.95,706.667
37,806.667
37.05,800
37.1,686.667
37.15,680
37.2,746.667
37.25,620
37.3,640
37.35,640
37.4,606.667
37.45,673.333
37.5,680
37.55,660
37.6,626.667
37.65,740
37.7,720
37.75,653.333
37.8,580
37.85,746.667
37.9,700
37.95,713.333
38,720
38.05,780
38.1,773.333
38.15,780
38.2,820
38.25,1013.33
38.3,873.333
38.35,1226.67
38.4,1780
38.45,2753.33
38.5,5726.67
38.55,9073.33
38.6,8166.67
38.65,6986.67
38.7,5146.67
38.75,3080
38.8,2086.67
38.85,1553.33
38.9,1373.33
38.95,1133.33
39,960
39.05,906.667
39.1,920
39.15,960
39.2,806.667
39.25,813.333
39.3,940
39.35,860
39.4,813.333
39.45,893.333
39.5,860
39.55,786.667
39.6,726.667
39.65,793.333
39.7,780
39.75,706.667
39.8,693.333
39.85,860
39.9,826.667
39.95,633.333
40,886.667
40.05,866.667
40.1,760
40.15,1013.33
40.2,1233.33
40.25,1193.33
40.3,1326.67
40.35,1640
40.4,1900
40.45,2140
40.5,2133.33
40.55,2526.67
40.6,2040
40.65,1933.33
40.7,1740
40.75,1440
40.8,1180
40.85,986.667
40.9,900
40.95,746.667
41,826.667
41.05,733.333
41.1,900
41.15,726.667
41.2,753.333
41.25,606.667
41.3,706.667
41.35,620
41.4,646.667
41.45,640
41.5,486.667
41.55,513.333
41.6,646.667
41.65,473.333
41.7,566.667
41.75,620
41.8,620
41.85,540
41.9,586.667
41.95,613.333
42,633.333
42.05,740
42.1,640
42.15,566.667
42.2,600
42.25,566.667
42.3,580
42.35,553.333
42.4,520
42.45,393.333
42.5,593.333
42.55,513.333
42.6,566.667
42.65,553.333
42.7,566.667
42.75,546.667
42.8,480
42.85,526.667
42.9,606.667
42.95,520
43,573.333
43.05,473.333
43.1,433.333
43.15,580
43.2,513.333
43.25,440
43.3,426.667
43.35,673.333
43.4,386.667
43.45,466.667
43.5,533.333
43.55,440
43.6,480
43.65,466.667
43.7,513.333
43.75,620
43.8,480
43.85,420
43.9,480
43.95,546.667
44,440
44.05,520
44.1,466.667
44.15,400
44.2,500
44.25,453.333
44.3,400
44.35,460
44.4,513.333
44.45,606.667
44.5,600
44.55,713.333
44.6,880
44.65,1100
44.7,1860
44.75,3526.67
44.8,4506.67
44.85,3293.33
44.9,3033.33
44.95,2300
45,1180
45.05,833.333
45.1,640
45.15,666.667
45.2,606.667
45.25,480
45.3,606.667
45.35,480
45.4,500
45.45,533.333
45.5,380
45.55,580
45.6,693.333
45.65,646.667
45.7,440
45.75,506.667
45.8,480
45.85,460
45.9,460
45.95,413.333
46,366.667
46.05,540
46.1,393.333
46.15,420
46.2,333.333
46.25,353.333
46.3,386.667
46.35,426.667
46.4,360
46.45,560
46.5,293.333
46.55,326.667
46.6,413.333
46.65,333.333
46.7,346.667
46.75,453.333
46.8,473.333
46.85,453.333
46.9,420
46.95,333.333
47,373.333
47.05,400
47.1,346.667
47.15,320
47.2,486.667
47.25,446.667
47.3,433.333
47.35,393.333
47.4,353.333
47.45,346.667
47.5,386.667
47.55,453.333
47.6,426.667
47.65,333.333
47.7,353.333
47.75,373.333
47.8,400
47.85,300
47.9,393.333
47.95,340
48,433.333
48.05,293.333
48.1,386.667
48.15,353.333
48.2,380
48.25,426.667
48.3,333.333
48.35,406.667
48.4,340
48.45,366.667
48.5,333.333
48.55,340
48.6,386.667
48.65,240
48.7,246.667
48.75,300
48.8,413.333
48.85,333.333
48.9,333.333
48.95,386.667
49,306.667
49.05,400
49.1,246.667
49.15,300
49.2,366.667
49.25,373.333
49.3,393.333
49.35,386.667
49.4,406.667
49.45,393.333
49.5,246.667
49.55,386.667
49.6,406.667
49.65,313.333
49.7,313.333
49.75,293.333
49.8,346.667
49.85,300
49.9,326.667
49.95,340
50,393.333
50.05,306.667
50.1,440
50.15,326.667
50.2,386.667
50.25,326.667
50.3,406.667
50.35,353.333
50.4,293.333
50.45,446.667
50.5,380
50.55,280
50.6,240
50.65,353.333
50.7,193.333
50.75,286.667
50.8,313.333
50.85,286.667
50.9,333.333
50.95,300
51,386.667
51.05,300
51.1,266.667
51.15,273.333
51.2,200
51.25,226.667
51.3,320
51.35,206.667
51.4,346.667
51.45,293.333
51.5,360
51.55,320
51.6,360
51.65,273.333
51.7,320
51.75,386.667
51.8,300
51.85,233.333
51.9,340
51.95,353.333
52,286.667
52.05,273.333
52.1,306.667
52.15,273.333
52.2,426.667
52.25,226.667
52.3,273.333
52.35,260
52.4,300
52.45,346.667
52.5,273.333
52.55,313.333
52.6,300
52.65,313.333
52.7,300
52.75,320
52.8,353.333
52.85,346.667
52.9,366.667
52.95,386.667
53,380
53.05,373.333
53.1,380
53.15,366.667
53.2,406.667
53.25,473.333
53.3,600
53.35,540
53.4,506.667
53.45,466.667
53.5,386.667
53.55,486.667
53.6,500
53.65,346.667
53.7,286.667
53.75,346.667
53.8,353.333
53.85,346.667
53.9,326.667
53.95,300
54,340
54.05,306.667
54.1,280
54.15,280
54.2,273.333
54.25,320
54.3,260
54.35,233.333
54.4,293.333
54.45,260
54.5,286.667
54.55,326.667
54.6,193.333
54.65,293.333
54.7,293.333
54.75,273.333
54.8,266.667
54.85,386.667
54.9,313.333
54.95,273.333
55,253.333
55.05,306.667
55.1,313.333
55.15,286.667
55.2,273.333
55.25,293.333
55.3,306.667
55.35,286.667
55.4,293.333
55.45,293.333
55.5,220
55.55,233.333
55.6,313.333
55.65,340
55.7,320
55.75,240
55.8,326.667
55.85,273.333
55.9,226.667
55.95,326.667
56,246.667
56.05,220
56.1,260
56.15,226.667
56.2,186.667
56.25,300
56.3,286.667
56.35,206.667
56.4,220
56.45,300
56.5,280
56.55,220
56.6,280
56.65,240
56.7,333.333
56.75,240
56.8,346.667
56.85,280
56.9,266.667
56.95,280
57,220
57.05,200
57.1,266.667
57.15,260
57.2,226.667
57.25,193.333
57.3,253.333
57.35,306.667
57.4,266.667
57.45,246.667
57.5,253.333
57.55,273.333
57.6,220
57.65,300
57.7,253.333
57.75,313.333
57.8,273.333
57.85,226.667
57.9,306.667
57.95,193.333
58,246.667
58.05,193.333
58.1,226.667
58.15,233.333
58.2,280
58.25,240
58.3,293.333
58.35,273.333
58.4,173.333
58.45,200
58.5,306.667
58.55,193.333
58.6,273.333
58.65,273.333
58.7,213.333
58.75,206.667
58.8,226.667
58.85,233.333
58.9,226.667
58.95,213.333
59,220
59.05,226.667
59.1,286.667
59.15,300
59.2,226.667
59.25,273.333
59.3,266.667
59.35,253.333
59.4,186.667
59.45,160
59.5,253.333
59.55,206.667
59.6,233.333
59.65,220
59.7,186.667
59.75,273.333
59.8,160
59.85,326.667
59.9,240
59.95,240
60,240
60.05,333.333
60.1,240
60.15,260
60.2,226.667
60.25,266.667
60.3,253.333
60.35,186.667
60.4,186.667
60.45,273.333
60.5,273.333
60.55,280
60.6,220
60.65,220
60.7,213.333
60.75,193.333
60.8,206.667
60.85,246.667
60.9,293.333
60.95,246.667
61,233.333
61.05,253.333
61.1,253.333
61.15,260
61.2,260
61.25,206.667
61.3,260
61.35,266.667
61.4,286.667
61.45,266.667
61.5,206.667
61.55,240
61.6,246.667
61.65,173.333
61.7,233.333
61.75,306.667
61.8,240
61.85,340
61.9,253.333
61.95,326.667
62,240
62.05,233.333
62.1,173.333
62.15,193.333
62.2,220
62.25,233.333
62.3,193.333
62.35,233.333
62.4,246.667
62.45,246.667
62.5,186.667
62.55,200
62.6,260
62.65,313.333
62.7,226.667
62.75,173.333
62.8,293.333
62.85,253.333
62.9,240
62.95,200
63,260
63.05,273.333
63.1,273.333
63.15,320
63.2,280
63.25,333.333
63.3,300
63.35,293.333
63.4,373.333
63.45,353.333
63.5,293.333
63.55,253.333
63.6,340
63.65,306.667
63.7,280
63.75,286.667
63.8,306.667
63.85,373.333
63.9,266.667
63.95,320
64,260
64.05,320
64.1,266.667
64.15,220
64.2,180
64.25,200
64.3,273.333
64.35,200
64.4,173.333
64.45,186.667
64.5,193.333
64.55,220
64.6,313.333
64.65,193.333
64.7,160
64.75,273.333
64.8,266.667
64.85,340
64.9,380
64.95,493.333
65,786.667
65.05,1273.33
65.1,2000
65.15,1786.67
65.2,1346.67
65.25,1100
65.3,1173.33
65.35,913.333
65.4,573.333
65.45,380
65.5,360
65.55,353.333
65.6,300
65.65,200
65.7,220
65.75,266.667
65.8,253.333
65.85,206.667
65.9,213.333
65.95,173.333
66,206.667
66.05,220
66.1,233.333
66.15,233.333
66.2,166.667
66.25,226.667
66.3,206.667
66.35,306.667
66.4,226.667
66.45,233.333
66.5,166.667
66.55,253.333
66.6,173.333
66.65,193.333
66.7,160
66.75,126.667
66.8,180
66.85,186.667
66.9,180
66.95,253.333
67,186.667
67.05,173.333
67.1,126.667
67.15,200
67.2,233.333
67.25,246.667
67.3,146.667
67.35,226.667
67.4,206.667
67.45,200
67.5,186.667
67.55,220
67.6,173.333
67.65,193.333
67.7,220
67.75,246.667
67.8,260
67.85,273.333
67.9,213.333
67.95,286.667
68,260
68.05,126.667
68.1,213.333
68.15,226.667
68.2,286.667
68.25,260
68.3,213.333
68.35,153.333
68.4,280
68.45,193.333
68.5,233.333
68.55,153.333
68.6,213.333
68.65,200
68.7,200
68.75,180
68.8,226.667
68.85,146.667
68.9,193.333
68.95,220
69,233.333
69.05,193.333
69.1,246.667
69.15,146.667
69.2,213.333
69.25,200
69.3,273.333
69.35,166.667
69.4,233.333
69.45,233.333
69.5,213.333
69.55,173.333
69.6,166.667
69.65,206.667
69.7,200
69.75,226.667
69.8,173.333
69.85,186.667
69.9,240
69.95,180
70,173.333
70.05,213.333
70.1,160
70.15,246.667
70.2,153.333
70.25,140
70.3,193.333
70.35,186.667
70.4,226.667
70.45,206.667
70.5,293.333
70.55,260
70.6,193.333
70.65,226.667
70.7,240
70.75,326.667
70.8,306.667
70.85,380
70.9,413.333
70.95,466.667
71,373.333
71.05,546.667
71.1,433.333
71.15,373.333
71.2,500
71.25,393.333
71.3,386.667
71.35,320
71.4,373.333
71.45,346.667
71.5,300
71.55,266.667
71.6,280
71.65,226.667
71.7,240
71.75,200
71.8,193.333
71.85,226.667
71.9,200
71.95,173.333
72,273.333
72.05,160
72.1,226.667
72.15,166.667
72.2,160
72.25,226.667
72.3,173.333
72.35,213.333
72.4,180
72.45,273.333
72.5,173.333
72.55,206.667
72.6,173.333
72.65,173.333
72.7,173.333
72.75,206.667
72.8,133.333
72.85,193.333
72.9,206.667
72.95,133.333
73,240
73.05,246.667
73.1,200
73.15,226.667
73.2,166.667
73.25,186.667
73.3,226.667
73.35,180
73.4,220
73.45,193.333
73.5,260
73.55,260
73.6,213.333
73.65,200
73.7,226.667
73.75,280
73.8,233.333
73.85,180
73.9,206.667
73.95,220
74,240
74.05,160
74.1,260
74.15,246.667
74.2,166.667
74.25,166.667
74.3,260
74.35,240
74.4,260
74.45,213.333
74.5,226.667
74.55,280
74.6,226.667
74.65,186.667
74.7,273.333
74.75,226.667
74.8,200
74.85,226.667
74.9,220
74.95,193.333
75,146.667
75.05,166.667
75.1,253.333
75.15,240
75.2,193.333
75.25,200
75.3,233.333
75.35,186.667
75.4,233.333
75.45,193.333
75.5,246.667
75.55,226.667
75.6,253.333
75.65,226.667
75.7,280
75.75,233.333
75.8,153.333
75.85,193.333
75.9,186.667
75.95,193.333
76,160
76.05,213.333
76.1,233.333
76.15,240
76.2,213.333
76.25,220
76.3,140
76.35,220
76.4,253.333
76.45,246.667
76.5,253.333
76.55,313.333
76.6,280
76.65,500
76.7,286.667
76.75,280
76.8,346.667
76.85,300
76.9,293.333
76.95,406.667
77,320
77.05,286.667
77.1,393.333
77.15,180
77.2,360
77.25,166.667
77.3,200
77.35,173.333
77.4,180
77.45,173.333
77.5,246.667
77.55,233.333
77.6,240
77.65,313.333
77.7,246.667
77.75,386.667
77.8,406.667
77.85,333.333
77.9,493.333
77.95,513.333
78,640
78.05,846.667
78.1,1326.67
78.15,1866.67
78.2,2160
78.25,2473.33
78.3,1700
78.35,1393.33
78.4,1566.67
78.45,1440
78.5,1053.33
78.55,920
78.6,593.333
78.65,373.333
78.7,313.333
78.75,266.667
78.8,266.667
78.85,200
78.9,300
78.95,213.333
79,253.333
79.05,240
79.1,200
79.15,166.667
79.2,253.333
79.25,186.667
79.3,180
79.35,253.333
79.4,240
79.45,246.667
79.5,160
79.55,186.667
79.6,220
79.65,173.333
79.7,173.333
79.75,160
79.8,200
79.85,173.333
79.9,166.667
79.95,246.667
80,240
80.05,300
80.1,193.333
80.15,166.667
80.2,213.333
80.25,193.333
80.3,200
80.35,146.667
80.4,153.333
80.45,146.667
80.5,180
80.55,186.667
80.6,140
80.65,173.333
80.7,160
80.75,240
80.8,180
80.85,206.667
80.9,166.667
80.95,220
81,186.667
81.05,233.333
81.1,266.667
81.15,133.333
81.2,160
81.25,133.333
81.3,146.667
81.35,206.667
81.4,266.667
81.45,166.667
81.5,206.667
81.55,206.667
81.6,160
81.65,140
81.7,160
81.75,133.333
81.8,193.333
81.85,133.333
81.9,213.333
81.95,266.667
82,213.333
82.05,226.667
82.1,193.333
82.15,340
82.2,300
82.25,446.667
82.3,500
82.35,746.667
82.4,880
82.45,826.667
82.5,606.667
82.55,546.667
82.6,666.667
82.65,566.667
82.7,593.333
82.75,513.333
82.8,306.667
82.85,340
82.9,260
82.95,146.667
83,213.333
83.05,240
83.1,213.333
83.15,233.333
83.2,166.667
83.25,240
83.3,220
83.35,173.333
83.4,206.667
83.45,180
83.5,133.333
83.55,206.667
83.6,166.667
83.65,126.667
83.7,166.667
83.75,173.333
83.8,206.667
83.85,193.333
83.9,166.667
83.95,153.333
84,120
84.05,200
84.1,193.333
84.15,160
84.2,120
84.25,173.333
84.3,166.667
84.35,186.667
84.4,173.333
84.45,126.667
84.5,173.333
84.55,160
84.6,120
84.65,120
84.7,200
84.75,166.667
84.8,133.333
84.85,93.3333
84.9,166.667
84.95,193.333
85,160
85.05,140
85.1,93.3333
85.15,166.667
85.2,160
85.25,140
85.3,100
85.35,120
85.4,133.333
85.45,146.667
85.5,120
85.55,166.667
85.6,140
85.65,93.3333
85.7,173.333
85.75,173.333
85.8,126.667
85.85,200
85.9,146.667
85.95,173.333
86,160
86.05,160
86.1,140
86.15,140
86.2,153.333
86.25,80
86.3,153.333
86.35,73.3333
86.4,113.333
86.45,106.667
86.5,153.333
86.55,120
86.6,126.667
86.65,113.333
86.7,186.667
86.75,106.667
86.8,166.667
86.85,113.333
86.9,113.333
86.95,166.667
87,126.667
87.05,180
87.1,106.667
87.15,166.667
87.2,153.333
87.25,200
87.3,126.667
87.35,180
87.4,173.333
87.45,133.333
87.5,200
87.55,146.667
87.6,133.333
87.65,146.667
87.7,140
87.75,166.667
87.8,146.667
87.85,180
87.9,186.667
87.95,186.667
88,166.667
88.05,93.3333
88.1,126.667
88.15,140
88.2,133.333
88.25,113.333
88.3,106.667
88.35,100
88.4,160
88.45,86.6667
88.5,133.333
88.55,120
88.6,126.667
88.65,80
88.7,140
88.75,100
88.8,120
88.85,113.333
88.9,153.333
88.95,120
89,126.667
89.05,126.667
89.1,146.667
89.15,86.6667
89.2,106.667
89.25,100
89.3,126.667
89.35,120
89.4,133.333
89.45,166.667
89.5,126.667
89.55,140
89.6,73.3333
89.65,86.6667
89.7,86.6667
89.75,133.333
89.8,120
89.85,126.667
89.9,86.6667
89.95,106.667
90,153.333